Folder: EDS_calculator/blazor-google-chartsV2

Note: README.md
# EDS_calculator
 EDS calculator final c sharp project

File: Base(13).emsa
#FORMAT      : EMSA/MAS Spectral Data File
#VERSION     : 1.0
#TITLE       : Base(13)
#DATE        : 09-AUG-2011
#TIME        : 10:12: 8
#OWNER       :
#NPOINTS     : 2560.0
#NCOLUMNS    : 1.0
#XUNITS      : keV
#YUNITS      : Intensity
#DATATYPE    : XY
#XPERCHAN    : 0.01
#OFFSET      : 0.000000000
#CHOFFSET    : 0.000000
#SIGNALTYPE  : EDS
#XLABEL      : X-Ray Energy
#YLABEL      : X-Ray Intensity
#BEAMKV   -kV:  25.0
#EMISSION -uA: 0.0000
#PROBECUR -nA: 1.1520
#BEAMDIAM -nm:   0.0
#MAGCAM      : 130.0
#OPERMODE    : IMAG
#XTILTSTGE-dg: 0.000
#YTILTSTGE-dg: 0.000
#XPOSITION   : 23.480
#YPOSITION   : 23.661
#ZPOSITION   : 42.499
#ELEVANGLE-dg: 38.95
#AZIMANGLE-dg:  0.00
#SOLIDANGL-sR: 0.0050
#LIVETIME  -s:  30.0
#REALTIME  -s:  31.9
#THCWIND     : 3.00E-09
#TAUWIND  -cm: 2.00E-06
#TDEADLYR -cm: 1.00E-06
#EDSDET      : SI-DRIFT
#COMMENT     : The following parameters are defined by Thermo Fisher Scientific
##INSTRUMENT : NSS Microanalysis System
##DETNAME    : UltraDry 1
##CONTAM     : 0.00E+00
##CONTAMTYPE : NONE
##WORKDIST   : 23.00
##STAGEROT   : 0.000
##SLIDEPOS   : 40.000
##CRYSTMATL  : Si-Drift
##CRYSTAREA  : 10.000
##CRYSTTHICK : 0.450
##CONTMATL   : SDD_LELMT
##WINDCOAT   : ALUM
##WINDTHICK  : 0.030
##DEADTIME   : 1.937
##TIMECNSTNT : 6400
##EDSBOARDREV: 2
##ZEROWIDTH  : 34.000
##DETECTS    : 146855
##CONVERTS   : 134409
##STORES     : 125990
##ESCPKSREM  : 0
##ZEROPKSREM : 0
##SUMPKSREM  : 0
##ZEROCUTOFF : 0.000
##DETSUBTYPE : 3
##EXPONENT   : 0.000
##LOWEVADJ   : 0.000
##BEAMX      : -1.000
##BEAMY      : -1.000
##CHARGE     : 0.00E+00
##QUANT_DATE : Tue Aug 09 10:12:40 2011
##QUANT_CHI  : 614.698
##WDS_ANGLE  : 0.000
##FITTYPE    : 3
##MATRIXCORR : 1
##PEAKLAB    : 8.631000  Zn Ka  2
##PEAKLAB    : 1.009000  Zn La  2
##PEAKLAB    : 8.041000  Cu Ka  2
##PEAKLAB    : 0.928000  Cu La  2
##QUANT_ATNUM: ZnK, 30
##QUANT_LNTP : ZnK, 1
##QUANT_SRC  : ZnK, 2
##QUANT_NTCNT: ZnK, 7
##QUANT_CTERR: ZnK, 47
##QUANT_STD  : ZnK,
##QUANT_CMPD : ZnK,  Zn
##QUANT_KRT  : ZnK, 1.00000
##QUANT_KERR : ZnK, 1.00000
##QUANT_FITC : ZnK, 1.89506e-005
##QUANT_WTCON: ZnK, 1.00000
##QUANT_ATCON: ZnK, 1.00000
##QUANT_COCON: ZnK, 1.00000
##QUANT_Z    : ZnK, 1.00000
##QUANT_A    : ZnK, 1.00065
##QUANT_F    : ZnK, 1.00000
##QUANT_KFACT: ZnK, 0.00000
##QUANT_CATS : ZnK, 0.00000
##QUANT_FITC1: ZnK, 0.00000e+000
##QUANT_FITC2: ZnK, 0.00000e+000
##QUANT_FIT_G: ZnK, 8.55164e-006
##QUANT_PMTR0: ZnK, 1.06534e+000
##QUANT_PMTR1: ZnK, -1.00000e+001
##QUANT_PMTR2: ZnK, 4.16900e-002
##QUANT_PMTR3: ZnK, 1.29947e+000
##QUANT_ATNUM: ZnL, 30
##QUANT_LNTP : ZnL, 2
##QUANT_SRC  : ZnL, 1
##QUANT_NTCNT: ZnL, 0
##QUANT_CTERR: ZnL, 0
##QUANT_STD  : ZnL,
##QUANT_CMPD : ZnL,  (null)
##QUANT_KRT  : ZnL, 0.00000
##QUANT_KERR : ZnL, 0.00000
##QUANT_FITC : ZnL, 0.00000e+000
##QUANT_WTCON: ZnL, -1.00000
##QUANT_ATCON: ZnL, 0.00000
##QUANT_COCON: ZnL, 0.00000
##QUANT_Z    : ZnL, 0.00000
##QUANT_A    : ZnL, 0.00000
##QUANT_F    : ZnL, 0.00000
##QUANT_KFACT: ZnL, 0.00000
##QUANT_CATS : ZnL, 0.00000
##QUANT_FITC1: ZnL, 0.00000e+000
##QUANT_FITC2: ZnL, 0.00000e+000
##QUANT_FIT_G: ZnL, 0.00000e+000
##QUANT_PMTR0: ZnL, 9.13126e-001
##QUANT_PMTR1: ZnL, 0.00000e+000
##QUANT_PMTR2: ZnL, 0.00000e+000
##QUANT_PMTR3: ZnL, 2.78772e+000
##QUANT_ATNUM: CuK, 29
##QUANT_LNTP : CuK, 1
##QUANT_SRC  : CuK, 2
##QUANT_NTCNT: CuK, 0
##QUANT_CTERR: CuK, 23
##QUANT_STD  : CuK,
##QUANT_CMPD : CuK,  Cu
##QUANT_KRT  : CuK, 0.00000
##QUANT_KERR : CuK, 0.00000
##QUANT_FITC : CuK, 0.00000e+000
##QUANT_WTCON: CuK, 0.00000
##QUANT_ATCON: CuK, 0.00000
##QUANT_COCON: CuK, 0.00000
##QUANT_Z    : CuK, 1.00150
##QUANT_A    : CuK, 1.00412
##QUANT_F    : CuK, 1.00000
##QUANT_KFACT: CuK, 0.00000
##QUANT_CATS : CuK, 0.00000
##QUANT_FITC1: CuK, 0.00000e+000
##QUANT_FITC2: CuK, 0.00000e+000
##QUANT_FIT_G: CuK, 1.79789e-004
##QUANT_PMTR0: CuK, 1.06534e+000
##QUANT_PMTR1: CuK, -1.00000e+001
##QUANT_PMTR2: CuK, 4.16900e-002
##QUANT_PMTR3: CuK, 1.29947e+000
##QUANT_ATNUM: CuL, 29
##QUANT_LNTP : CuL, 2
##QUANT_SRC  : CuL, 1
##QUANT_NTCNT: CuL, 8020
##QUANT_CTERR: CuL, 134
##QUANT_STD  : CuL,
##QUANT_CMPD : CuL,  (null)
##QUANT_KRT  : CuL, 0.00000
##QUANT_KERR : CuL, 0.00000
##QUANT_FITC : CuL, 1.12763e-001
##QUANT_WTCON: CuL, -1.00000
##QUANT_ATCON: CuL, 0.00000
##QUANT_COCON: CuL, 0.00000
##QUANT_Z    : CuL, 0.00000
##QUANT_A    : CuL, 0.00000
##QUANT_F    : CuL, 0.00000
##QUANT_KFACT: CuL, 0.00000
##QUANT_CATS : CuL, 0.00000
##QUANT_FITC1: CuL, 2.65307e-002
##QUANT_FITC2: CuL, 3.42551e-002
##QUANT_FIT_G: CuL, 2.78541e-001
##QUANT_PMTR0: CuL, 9.13126e-001
##QUANT_PMTR1: CuL, 0.00000e+000
##QUANT_PMTR2: CuL, 0.00000e+000
##QUANT_PMTR3: CuL, 2.78772e+000
#SPECTRUM    :
0.0000,  4603.0,
0.0900,    26.0,
0.1800,   103.0,
0.2700,   147.0,
0.3600,    34.0,
0.4500,    61.0,
0.5400,   105.0,
0.6300,   142.0,
0.7200,   539.0,
0.8100,  1320.0,
0.9000,   639.0,
0.9900,    49.0,
1.0800,    38.0,
1.1700,    52.0,
1.2600,    33.0,
1.3500,    46.0,
1.4400,    49.0,
1.5300,    69.0,
1.6200,    51.0,
1.7100,    69.0,
1.8000,    70.0,
1.8900,    59.0,
1.9800,    56.0,
2.0700,    49.0,
2.1600,    42.0,
2.2500,    49.0,
2.3400,    47.0,
2.4300,    39.0,
2.5200,    64.0,
2.6100,    63.0,
2.7000,    58.0,
2.7900,    47.0,
2.8800,    39.0,
2.9700,    53.0,
3.0600,    50.0,
3.1500,    43.0,
3.2400,    41.0,
3.3300,    43.0,
3.4200,    28.0,
3.5100,    53.0,
3.6000,    52.0,
3.6900,    44.0,
3.7800,    45.0,
3.8700,    48.0,
3.9600,    47.0,
4.0500,    48.0,
4.1400,    36.0,
4.2300,    29.0,
4.3200,    40.0,
4.4100,    52.0,
4.5000,    43.0,
4.5900,    35.0,
4.6800,    38.0,
4.7700,    41.0,
4.8600,    34.0,
4.9500,    36.0,
5.0400,    26.0,
5.1300,    29.0,
5.2200,    36.0,
5.3100,    24.0,
5.4000,    29.0,
5.4900,    28.0,
5.5800,    24.0,
5.6700,    32.0,
5.7600,    31.0,
5.8500,    30.0,
5.9400,    38.0,
6.0300,    29.0,
6.1200,    29.0,
6.2100,    30.0,
6.3000,    29.0,
6.3900,    25.0,
6.4800,    30.0,
6.5700,    19.0,
6.6600,    21.0,
6.7500,    25.0,
6.8400,    23.0,
6.9300,    25.0,
7.0200,    21.0,
7.1100,    18.0,
7.2000,    30.0,
7.2900,    25.0,
7.3800,   221.0,
7.4700,  1609.0,
7.5600,  1396.0,
7.6500,   161.0,
7.7400,    22.0,
7.8300,    28.0,
7.9200,    27.0,
8.0100,    17.0,
8.1000,    20.0,
8.1900,    68.0,
8.2800,   224.0,
8.3700,   180.0,
8.4600,    21.0,
8.5500,    13.0,
8.6400,    11.0,
8.7300,    13.0,
8.8200,    16.0,
8.9100,    18.0,
9.0000,    12.0,
9.0900,    11.0,
9.1800,    13.0,
9.2700,    13.0,
9.3600,    10.0,
9.4500,    15.0,
9.5400,    20.0,
9.6300,     8.0,
9.7200,    11.0,
9.8100,    12.0,
9.9000,     5.0,
9.9900,    14.0,
10.0800,    10.0,
10.1700,     9.0,
10.2600,     9.0,
10.3500,    16.0,
10.4400,    12.0,
10.5300,     8.0,
10.6200,     7.0,
10.7100,    16.0,
10.8000,    12.0,
10.8900,     5.0,
10.9800,    13.0,
11.0700,     7.0,
11.1600,     4.0,
11.2500,    10.0,
11.3400,     6.0,
11.4300,     8.0,
11.5200,    12.0,
11.6100,     6.0,
11.7000,     7.0,
11.7900,     4.0,
11.8800,     8.0,
11.9700,     7.0,
12.0600,     7.0,
12.1500,    10.0,
12.2400,     9.0,
12.3300,     5.0,
12.4200,     7.0,
12.5100,     4.0,
12.6000,     7.0,
12.6900,     5.0,
12.7800,     9.0,
12.8700,     7.0,
12.9600,     9.0,
13.0500,     7.0,
13.1400,     9.0,
13.2300,     8.0,
13.3200,     6.0,
13.4100,    12.0,
13.5000,     4.0,
13.5900,     7.0,
13.6800,     4.0,
13.7700,     4.0,
13.8600,     5.0,
13.9500,     3.0,
14.0400,     5.0,
14.1300,     4.0,
14.2200,     4.0,
14.3100,    10.0,
14.4000,     5.0,
14.4900,    10.0,
14.5800,     8.0,
14.6700,     3.0,
14.7600,     3.0,
14.8500,     9.0,
14.9400,     3.0,
15.0300,     5.0,
15.1200,     2.0,
15.2100,     4.0,
15.3000,     5.0,
15.3900,     1.0,
15.4800,     0.0,
15.5700,     1.0,
15.6600,     5.0,
15.7500,     4.0,
15.8400,     6.0,
15.9300,     3.0,
16.0200,     3.0,
16.1100,     3.0,
16.2000,     5.0,
16.2900,     1.0,
16.3800,     2.0,
16.4700,     3.0,
16.5600,     4.0,
16.6500,     4.0,
16.7400,     3.0,
16.8300,     1.0,
16.9200,     7.0,
17.0100,     2.0,
17.1000,     2.0,
17.1900,     1.0,
17.2800,     2.0,
17.3700,     7.0,
17.4600,     2.0,
17.5500,     0.0,
17.6400,     2.0,
17.7300,     2.0,
17.8200,     4.0,
17.9100,     3.0,
18.0000,     0.0,
18.0900,     0.0,
18.1800,     1.0,
18.2700,     2.0,
18.3600,     2.0,
18.4500,     2.0,
18.5400,     2.0,
18.6300,     0.0,
18.7200,     1.0,
18.8100,     3.0,
18.9000,     2.0,
18.9900,     1.0,
19.0800,     2.0,
19.1700,     0.0,
19.2600,     0.0,
19.3500,     0.0,
19.4400,     2.0,
19.5300,     1.0,
19.6200,     2.0,
19.7100,     2.0,
19.8000,     2.0,
19.8900,     0.0,
19.9800,     2.0,
20.0700,     3.0,
20.1600,     1.0,
20.2500,     1.0,
20.3400,     4.0,
20.4300,     3.0,
20.5200,     1.0,
20.6100,     0.0,
20.7000,     0.0,
20.7900,     1.0,
20.8800,     1.0,
20.9700,     1.0,
21.0600,     0.0,
21.1500,     0.0,
21.2400,     0.0,
21.3300,     0.0,
21.4200,     1.0,
21.5100,     0.0,
21.6000,     0.0,
21.6900,     1.0,
21.7800,     0.0,
21.8700,     0.0,
21.9600,     1.0,
22.0500,     0.0,
22.1400,     0.0,
22.2300,     0.0,
22.3200,     0.0,
22.4100,     0.0,
22.5000,     0.0,
22.5900,     1.0,
22.6800,     0.0,
22.7700,     0.0,
22.8600,     0.0,
22.9500,     0.0,
23.0400,     0.0,
23.1300,     0.0,
23.2200,     0.0,
23.3100,     0.0,
23.4000,     2.0,
23.4900,     0.0,
23.5800,     0.0,
23.6700,     0.0,
23.7600,     0.0,
23.8500,     1.0,
23.9400,     0.0,
24.0300,     0.0,
24.1200,     0.0,
24.2100,     0.0,
24.3000,     0.0,
24.3900,     0.0,
24.4800,     0.0,
24.5700,     0.0,
24.6600,     0.0,
24.7500,     1.0,
24.8400,     0.0,
24.9300,     0.0,
25.0200,     0.0,
25.1100,     0.0,
25.2000,     0.0,
25.2900,     0.0,
25.3800,     0.0,
25.4700,     0.0,
25.5600,     0.0,
25.5900,     0.0,
#ENDOFDATA   :